{
  "resourceType": "Bundle",
  "id": "1a8d43419c1fe653dec23a69b63722d28cc6c7bec66a0c12ded7902696d8c1ba",
  "type": "transaction",
  "entry": [ {
    "resource": {
      "resourceType": "MedicationRequest",
      "id": "1a8d43419c1fe653dec23a69b63722d28cc6c7bec66a0c12ded7902696d8c1ba",
      "identifier": [ {
        "system": "https://bzkf.github.io/zenzy-to-fhir/identifiers/therapie-medication-request-id",
        "value": "6"
      } ],
      "status": "active",
      "intent": "order",
      "reportedBoolean": false,
      "medicationReference": {
        "reference": "Medication/b6476abdd8364a89212893743b09260dc3960322386de094a0fbfb93ad9b9e74"
      },
      "subject": {
        "reference": "Patient/123"
      },
      "dosageInstruction": [ {
        "text": "Kurzinfusion über 30 min",
        "timing": {
          "event": [ "2025-03-11T14:00:00+01:00" ],
          "repeat": {
            "duration": 30.0,
            "durationUnit": "min"
          }
        },
        "route": {
          "coding": [ {
            "system": "http://snomed.info/sct",
            "version": "http://snomed.info/sct/900000000000207008/version/20260101",
            "code": "47625008",
            "display": "Intravenous route"
          } ]
        },
        "method": {
          "coding": [ {
            "system": "http://snomed.info/sct",
            "version": "http://snomed.info/sct/900000000000207008/version/20260101",
            "code": "36576007",
            "display": "Infusion (procedure)"
          } ]
        },
        "doseAndRate": [ {
          "doseQuantity": {
            "value": 500.0,
            "unit": "milliliter",
            "system": "http://unitsofmeasure.org",
            "code": "mL"
          }
        } ]
      } ]
    },
    "request": {
      "method": "PUT",
      "url": "MedicationRequest/1a8d43419c1fe653dec23a69b63722d28cc6c7bec66a0c12ded7902696d8c1ba"
    }
  }, {
    "resource": {
      "resourceType": "Medication",
      "id": "b6476abdd8364a89212893743b09260dc3960322386de094a0fbfb93ad9b9e74",
      "identifier": [ {
        "system": "https://bzkf.github.io/zenzy-to-fhir/identifiers/therapie-medication-id",
        "value": "6"
      } ],
      "status": "active",
      "amount": {
        "numerator": {
          "value": 500.0,
          "unit": "milliliter",
          "system": "http://unitsofmeasure.org",
          "code": "mL"
        },
        "denominator": {
          "value": 1,
          "unit": "1",
          "system": "http://unitsofmeasure.org",
          "code": "{Stueck}"
        }
      },
      "ingredient": [ {
        "itemReference": {
          "reference": "Medication/43fb1bc7fb5e5d04e957db423e5cfb31e96ccb8d9e3f2eb8a2414c3e91afcd4a",
          "display": "Glucose 5%"
        },
        "isActive": false,
        "strength": {
          "numerator": {
            "value": 500.0,
            "unit": "1",
            "system": "http://unitsofmeasure.org",
            "code": "{Stueck}"
          },
          "denominator": {
            "value": 500.0,
            "unit": "milliliter",
            "system": "http://unitsofmeasure.org",
            "code": "mL"
          }
        }
      }, {
        "itemReference": {
          "reference": "Medication/7876887cc3b4c2a8f5db9b6bcf131578f1ab217f0157f241b9aa36672fa56339",
          "display": "Carboplatin"
        },
        "isActive": false,
        "strength": {
          "numerator": {
            "value": 540.0,
            "unit": "{Stueck}",
            "system": "http://unitsofmeasure.org",
            "code": "1"
          },
          "denominator": {
            "value": 500.0,
            "unit": "milliliter",
            "system": "http://unitsofmeasure.org",
            "code": "mL"
          }
        }
      } ]
    },
    "request": {
      "method": "PUT",
      "url": "Medication/b6476abdd8364a89212893743b09260dc3960322386de094a0fbfb93ad9b9e74"
    }
  }, {
    "resource": {
      "resourceType": "Medication",
      "id": "7876887cc3b4c2a8f5db9b6bcf131578f1ab217f0157f241b9aa36672fa56339",
      "identifier": [ {
        "system": "https://bzkf.github.io/zenzy-to-fhir/identifiers/therapie-wirkstoff-medication-id",
        "value": "carboplatin"
      } ],
      "code": {
        "coding": [ {
          "system": "http://fhir.de/CodeSystem/bfarm/atc",
          "version": "2025",
          "code": "L01XA02",
          "display": "Carboplatin"
        }, {
          "system": "http://snomed.info/sct",
          "version": "http://snomed.info/sct/900000000000207008/version/20260101",
          "code": "386905002",
          "display": "Carboplatin (substance)"
        } ],
        "text": "Carboplatin"
      },
      "status": "active",
      "amount": {
        "numerator": {
          "value": 1,
          "unit": "mg",
          "system": "http://unitsofmeasure.org",
          "code": "mg"
        },
        "denominator": {
          "value": 1,
          "unit": "{Stueck}",
          "system": "http://unitsofmeasure.org",
          "code": "1"
        }
      }
    },
    "request": {
      "method": "PUT",
      "url": "Medication/7876887cc3b4c2a8f5db9b6bcf131578f1ab217f0157f241b9aa36672fa56339"
    }
  }, {
    "resource": {
      "resourceType": "Medication",
      "id": "43fb1bc7fb5e5d04e957db423e5cfb31e96ccb8d9e3f2eb8a2414c3e91afcd4a",
      "identifier": [ {
        "system": "https://bzkf.github.io/zenzy-to-fhir/identifiers/therapie-traegerloesung-medication-id",
        "value": "glucose-5"
      } ],
      "code": {
        "coding": [ {
          "system": "http://snomed.info/sct",
          "version": "http://snomed.info/sct/900000000000207008/version/20260101",
          "code": "1268457003",
          "display": "Product containing precisely glucose 50 milligram/1 milliliter conventional release solution for infusion and/or injection (clinical drug)"
        }, {
          "system": "http://fhir.de/CodeSystem/bfarm/atc",
          "version": "2025",
          "code": "B05BA11",
          "display": "Glucose"
        } ],
        "text": "Glucose 5%"
      },
      "status": "active",
      "amount": {
        "numerator": {
          "value": 1,
          "unit": "milliliter",
          "system": "http://unitsofmeasure.org",
          "code": "mL"
        },
        "denominator": {
          "value": 1,
          "unit": "1",
          "system": "http://unitsofmeasure.org",
          "code": "{Stueck}"
        }
      }
    },
    "request": {
      "method": "PUT",
      "url": "Medication/43fb1bc7fb5e5d04e957db423e5cfb31e96ccb8d9e3f2eb8a2414c3e91afcd4a"
    }
  } ]
}