{
  "resourceType": "Bundle",
  "id": "8ce8958fc6b03f56b28f0acdaf6ce835088030ec8d68e96698b14bf8485f4bca",
  "type": "transaction",
  "entry": [ {
    "resource": {
      "resourceType": "MedicationRequest",
      "id": "8ce8958fc6b03f56b28f0acdaf6ce835088030ec8d68e96698b14bf8485f4bca",
      "identifier": [ {
        "system": "https://bzkf.github.io/zenzy-to-fhir/identifiers/therapie-medication-request-id",
        "value": "1"
      } ],
      "status": "active",
      "intent": "order",
      "reportedBoolean": false,
      "medicationReference": {
        "reference": "Medication/a68889464122675222d3d6a24c13d219c8fb3cc91c930a0f219ba6d69824d29b"
      },
      "subject": {
        "reference": "Patient/1"
      },
      "dosageInstruction": [ {
        "text": "Kurzinfusion über 30 min",
        "timing": {
          "event": [ "1999-10-26T11:30:00+02:00" ],
          "repeat": {
            "duration": 30.0,
            "durationUnit": "min"
          }
        },
        "route": {
          "coding": [ {
            "system": "http://snomed.info/sct",
            "version": "http://snomed.info/sct/900000000000207008/version/20260101",
            "code": "47625008",
            "display": "Intravenous route"
          } ]
        },
        "method": {
          "coding": [ {
            "system": "http://snomed.info/sct",
            "version": "http://snomed.info/sct/900000000000207008/version/20260101",
            "code": "36576007",
            "display": "Infusion (procedure)"
          } ]
        },
        "doseAndRate": [ {
          "doseQuantity": {
            "value": 500.0,
            "unit": "milliliter",
            "system": "http://unitsofmeasure.org",
            "code": "mL"
          }
        } ]
      } ]
    },
    "request": {
      "method": "PUT",
      "url": "MedicationRequest/8ce8958fc6b03f56b28f0acdaf6ce835088030ec8d68e96698b14bf8485f4bca"
    }
  }, {
    "resource": {
      "resourceType": "Medication",
      "id": "a68889464122675222d3d6a24c13d219c8fb3cc91c930a0f219ba6d69824d29b",
      "identifier": [ {
        "system": "https://bzkf.github.io/zenzy-to-fhir/identifiers/therapie-medication-id",
        "value": "1"
      } ],
      "status": "active",
      "amount": {
        "numerator": {
          "value": 500.0,
          "unit": "milliliter",
          "system": "http://unitsofmeasure.org",
          "code": "mL"
        },
        "denominator": {
          "value": 1,
          "unit": "1",
          "system": "http://unitsofmeasure.org",
          "code": "{Stueck}"
        }
      },
      "ingredient": [ {
        "itemReference": {
          "reference": "Medication/43fb1bc7fb5e5d04e957db423e5cfb31e96ccb8d9e3f2eb8a2414c3e91afcd4a",
          "display": "Glucose 5%"
        },
        "isActive": false,
        "strength": {
          "numerator": {
            "value": 500.0,
            "unit": "1",
            "system": "http://unitsofmeasure.org",
            "code": "{Stueck}"
          },
          "denominator": {
            "value": 500.0,
            "unit": "milliliter",
            "system": "http://unitsofmeasure.org",
            "code": "mL"
          }
        }
      }, {
        "itemReference": {
          "reference": "Medication/0f0afcc1be19f786831dd70d69bc15fee112fdde59b2fb92d986f89abc3dc3ed",
          "display": "Fluorouracil"
        },
        "isActive": false,
        "strength": {
          "numerator": {
            "value": 900.0,
            "unit": "{Stueck}",
            "system": "http://unitsofmeasure.org",
            "code": "1"
          },
          "denominator": {
            "value": 500.0,
            "unit": "milliliter",
            "system": "http://unitsofmeasure.org",
            "code": "mL"
          }
        }
      } ]
    },
    "request": {
      "method": "PUT",
      "url": "Medication/a68889464122675222d3d6a24c13d219c8fb3cc91c930a0f219ba6d69824d29b"
    }
  }, {
    "resource": {
      "resourceType": "Medication",
      "id": "0f0afcc1be19f786831dd70d69bc15fee112fdde59b2fb92d986f89abc3dc3ed",
      "identifier": [ {
        "system": "https://bzkf.github.io/zenzy-to-fhir/identifiers/therapie-wirkstoff-medication-id",
        "value": "fluorouracil"
      } ],
      "code": {
        "coding": [ {
          "system": "http://fhir.de/CodeSystem/bfarm/atc",
          "version": "2025",
          "code": "L01BC02",
          "display": "Fluorouracil"
        }, {
          "system": "http://snomed.info/sct",
          "version": "http://snomed.info/sct/900000000000207008/version/20260101",
          "code": "387172005",
          "display": "Fluorouracil (substance)"
        } ],
        "text": "Fluorouracil"
      },
      "status": "active",
      "amount": {
        "numerator": {
          "value": 1,
          "unit": "mg",
          "system": "http://unitsofmeasure.org",
          "code": "mg"
        },
        "denominator": {
          "value": 1,
          "unit": "{Stueck}",
          "system": "http://unitsofmeasure.org",
          "code": "1"
        }
      }
    },
    "request": {
      "method": "PUT",
      "url": "Medication/0f0afcc1be19f786831dd70d69bc15fee112fdde59b2fb92d986f89abc3dc3ed"
    }
  }, {
    "resource": {
      "resourceType": "Medication",
      "id": "43fb1bc7fb5e5d04e957db423e5cfb31e96ccb8d9e3f2eb8a2414c3e91afcd4a",
      "identifier": [ {
        "system": "https://bzkf.github.io/zenzy-to-fhir/identifiers/therapie-traegerloesung-medication-id",
        "value": "glucose-5"
      } ],
      "code": {
        "coding": [ {
          "system": "http://snomed.info/sct",
          "version": "http://snomed.info/sct/900000000000207008/version/20260101",
          "code": "1268457003",
          "display": "Product containing precisely glucose 50 milligram/1 milliliter conventional release solution for infusion and/or injection (clinical drug)"
        }, {
          "system": "http://fhir.de/CodeSystem/bfarm/atc",
          "version": "2025",
          "code": "B05BA11",
          "display": "Glucose"
        } ],
        "text": "Glucose 5%"
      },
      "status": "active",
      "amount": {
        "numerator": {
          "value": 1,
          "unit": "milliliter",
          "system": "http://unitsofmeasure.org",
          "code": "mL"
        },
        "denominator": {
          "value": 1,
          "unit": "1",
          "system": "http://unitsofmeasure.org",
          "code": "{Stueck}"
        }
      }
    },
    "request": {
      "method": "PUT",
      "url": "Medication/43fb1bc7fb5e5d04e957db423e5cfb31e96ccb8d9e3f2eb8a2414c3e91afcd4a"
    }
  } ]
}