{
  "resourceType": "Bundle",
  "id": "d687491c4a6603cb4b8445ed258a455f12b470ecff5be38a41c0d918ba896804",
  "type": "transaction",
  "entry": [ {
    "resource": {
      "resourceType": "MedicationRequest",
      "id": "d687491c4a6603cb4b8445ed258a455f12b470ecff5be38a41c0d918ba896804",
      "identifier": [ {
        "system": "https://bzkf.github.io/zenzy-to-fhir/identifiers/zenzy-therapie-autonr",
        "value": "5"
      } ],
      "status": "active",
      "intent": "order",
      "reportedBoolean": false,
      "medicationReference": {
        "reference": "Medication/804a5bed081edc913f7f3b55e70329f342783b562a4af6c5bba660fb6e0aec87"
      },
      "subject": {
        "reference": "Patient/1234556"
      },
      "dosageInstruction": [ {
        "text": "Injectomat-Spritze",
        "timing": {
          "event": [ "2009-08-24T16:00:00+02:00" ]
        },
        "route": {
          "coding": [ {
            "system": "http://snomed.info/sct",
            "version": "http://snomed.info/sct/900000000000207008/version/20260101",
            "code": "47625008",
            "display": "Intravenous route"
          } ]
        },
        "method": {
          "coding": [ {
            "system": "http://snomed.info/sct",
            "version": "http://snomed.info/sct/900000000000207008/version/20260101",
            "code": "36576007",
            "display": "Infusion (procedure)"
          } ]
        },
        "doseAndRate": [ {
          "doseQuantity": {
            "value": 25.0,
            "unit": "milliliter",
            "system": "http://unitsofmeasure.org",
            "code": "mL"
          }
        } ]
      } ]
    },
    "request": {
      "method": "PUT",
      "url": "MedicationRequest/d687491c4a6603cb4b8445ed258a455f12b470ecff5be38a41c0d918ba896804"
    }
  }, {
    "resource": {
      "resourceType": "Medication",
      "id": "804a5bed081edc913f7f3b55e70329f342783b562a4af6c5bba660fb6e0aec87",
      "identifier": [ {
        "system": "https://bzkf.github.io/zenzy-to-fhir/identifiers/zenzy-herstellungs-id",
        "value": "20090824095"
      } ],
      "status": "active",
      "amount": {
        "numerator": {
          "value": 25.0,
          "unit": "milliliter",
          "system": "http://unitsofmeasure.org",
          "code": "mL"
        },
        "denominator": {
          "value": 1,
          "unit": "1",
          "system": "http://unitsofmeasure.org",
          "code": "{Stueck}"
        }
      },
      "ingredient": [ {
        "itemReference": {
          "reference": "Medication/7b0bedd37ab7da30e39737787f8ca4eef72b846160048dbaa2cb74eae461e276",
          "display": "Glucose 5%"
        },
        "isActive": false,
        "strength": {
          "numerator": {
            "value": 25.0,
            "unit": "1",
            "system": "http://unitsofmeasure.org",
            "code": "{Stueck}"
          },
          "denominator": {
            "value": 25.0,
            "unit": "milliliter",
            "system": "http://unitsofmeasure.org",
            "code": "mL"
          }
        }
      }, {
        "itemReference": {
          "reference": "Medication/5978a44f5d9e45ddf9a7664d13cb9b413d59ead2ed546951b0ff2b6c480ed40a",
          "display": "Amphotericin lipos."
        },
        "isActive": false,
        "strength": {
          "numerator": {
            "value": 5.0,
            "unit": "{Stueck}",
            "system": "http://unitsofmeasure.org",
            "code": "1"
          },
          "denominator": {
            "value": 25.0,
            "unit": "milliliter",
            "system": "http://unitsofmeasure.org",
            "code": "mL"
          }
        }
      } ]
    },
    "request": {
      "method": "PUT",
      "url": "Medication/804a5bed081edc913f7f3b55e70329f342783b562a4af6c5bba660fb6e0aec87"
    }
  }, {
    "resource": {
      "resourceType": "Medication",
      "id": "5978a44f5d9e45ddf9a7664d13cb9b413d59ead2ed546951b0ff2b6c480ed40a",
      "identifier": [ {
        "system": "https://bzkf.github.io/zenzy-to-fhir/identifiers/zenzy-wirkstoff-id",
        "value": "amphotericin-lipos"
      } ],
      "code": {
        "coding": [ {
          "system": "http://fhir.de/CodeSystem/bfarm/atc",
          "version": "2025",
          "code": "J02AA01",
          "display": "Amphotericin B"
        }, {
          "system": "http://snomed.info/sct",
          "version": "http://snomed.info/sct/900000000000207008/version/20260101",
          "code": "77703004",
          "display": "Amphotericin B (substance)"
        } ],
        "text": "Amphotericin lipos."
      },
      "status": "active",
      "amount": {
        "numerator": {
          "value": 1,
          "unit": "mg",
          "system": "http://unitsofmeasure.org",
          "code": "mg"
        },
        "denominator": {
          "value": 1,
          "unit": "{Stueck}",
          "system": "http://unitsofmeasure.org",
          "code": "1"
        }
      }
    },
    "request": {
      "method": "PUT",
      "url": "Medication/5978a44f5d9e45ddf9a7664d13cb9b413d59ead2ed546951b0ff2b6c480ed40a"
    }
  }, {
    "resource": {
      "resourceType": "Medication",
      "id": "7b0bedd37ab7da30e39737787f8ca4eef72b846160048dbaa2cb74eae461e276",
      "identifier": [ {
        "system": "https://bzkf.github.io/zenzy-to-fhir/identifiers/zenzy-traegerloesung-id",
        "value": "glucose-5"
      } ],
      "code": {
        "coding": [ {
          "system": "http://snomed.info/sct",
          "version": "http://snomed.info/sct/900000000000207008/version/20260101",
          "code": "1268457003",
          "display": "Product containing precisely glucose 50 milligram/1 milliliter conventional release solution for infusion and/or injection (clinical drug)"
        }, {
          "system": "http://fhir.de/CodeSystem/bfarm/atc",
          "version": "2025",
          "code": "B05BA11",
          "display": "Glucose"
        } ],
        "text": "Glucose 5%"
      },
      "status": "active",
      "amount": {
        "numerator": {
          "value": 1,
          "unit": "milliliter",
          "system": "http://unitsofmeasure.org",
          "code": "mL"
        },
        "denominator": {
          "value": 1,
          "unit": "1",
          "system": "http://unitsofmeasure.org",
          "code": "{Stueck}"
        }
      }
    },
    "request": {
      "method": "PUT",
      "url": "Medication/7b0bedd37ab7da30e39737787f8ca4eef72b846160048dbaa2cb74eae461e276"
    }
  } ]
}