{
  "resourceType": "Bundle",
  "id": "fdcfad11ed78af26b7b55f1119b5f923dac19bf4f35136ee31b6f72ccba2f490",
  "type": "transaction",
  "entry": [ {
    "resource": {
      "resourceType": "MedicationRequest",
      "id": "fdcfad11ed78af26b7b55f1119b5f923dac19bf4f35136ee31b6f72ccba2f490",
      "identifier": [ {
        "system": "https://bzkf.github.io/zenzy-to-fhir/identifiers/zenzy-therapie-autonr",
        "value": "4"
      } ],
      "status": "active",
      "intent": "order",
      "reportedBoolean": false,
      "medicationReference": {
        "reference": "Medication/bf46ae05f5cd7e565b675568ff75924526b5f920b1757e61d39fc037c3f2fbdd"
      },
      "subject": {
        "reference": "Patient/4"
      },
      "dosageInstruction": [ {
        "text": "Baxterpumpe (SV4) über 24 h",
        "timing": {
          "event": [ "2007-05-02T02:00:00+02:00" ],
          "repeat": {
            "duration": 24.0,
            "durationUnit": "h"
          }
        },
        "route": {
          "coding": [ {
            "system": "http://snomed.info/sct",
            "version": "http://snomed.info/sct/900000000000207008/version/20260101",
            "code": "47625008",
            "display": "Intravenous route"
          } ]
        },
        "method": {
          "coding": [ {
            "system": "http://snomed.info/sct",
            "version": "http://snomed.info/sct/900000000000207008/version/20260101",
            "code": "36576007",
            "display": "Infusion (procedure)"
          } ]
        },
        "doseAndRate": [ {
          "doseQuantity": {
            "value": 100.0,
            "unit": "milliliter",
            "system": "http://unitsofmeasure.org",
            "code": "mL"
          }
        } ]
      } ]
    },
    "request": {
      "method": "PUT",
      "url": "MedicationRequest/fdcfad11ed78af26b7b55f1119b5f923dac19bf4f35136ee31b6f72ccba2f490"
    }
  }, {
    "resource": {
      "resourceType": "Medication",
      "id": "bf46ae05f5cd7e565b675568ff75924526b5f920b1757e61d39fc037c3f2fbdd",
      "identifier": [ {
        "system": "https://bzkf.github.io/zenzy-to-fhir/identifiers/zenzy-herstellungs-id",
        "value": "44444"
      } ],
      "status": "active",
      "amount": {
        "numerator": {
          "value": 100.0,
          "unit": "milliliter",
          "system": "http://unitsofmeasure.org",
          "code": "mL"
        },
        "denominator": {
          "value": 1,
          "unit": "1",
          "system": "http://unitsofmeasure.org",
          "code": "{Stueck}"
        }
      },
      "ingredient": [ {
        "itemReference": {
          "reference": "Medication/fb1567b70a9ef69e338fa2d329ed33bc44b7308cd4358d4c5163f5a796fff4fa",
          "display": "NaCl 0.9%"
        },
        "isActive": false,
        "strength": {
          "numerator": {
            "value": 100.0,
            "unit": "1",
            "system": "http://unitsofmeasure.org",
            "code": "{Stueck}"
          },
          "denominator": {
            "value": 100.0,
            "unit": "milliliter",
            "system": "http://unitsofmeasure.org",
            "code": "mL"
          }
        }
      }, {
        "itemReference": {
          "reference": "Medication/58655873b22e0ab3acf6f70b3910599606eeb6526764571a213eda3d29e1849a",
          "display": "Fluorouracil"
        },
        "isActive": false,
        "strength": {
          "numerator": {
            "value": 3300.0,
            "unit": "{Stueck}",
            "system": "http://unitsofmeasure.org",
            "code": "1"
          },
          "denominator": {
            "value": 100.0,
            "unit": "milliliter",
            "system": "http://unitsofmeasure.org",
            "code": "mL"
          }
        }
      }, {
        "itemReference": {
          "reference": "Medication/1f2497d56d36964b8c8de60ff98549470d2226669ceb8272caa0801904c9da77",
          "display": "Natriumfolinat"
        },
        "isActive": false,
        "strength": {
          "numerator": {
            "value": 800.0,
            "unit": "{Stueck}",
            "system": "http://unitsofmeasure.org",
            "code": "1"
          },
          "denominator": {
            "value": 100.0,
            "unit": "milliliter",
            "system": "http://unitsofmeasure.org",
            "code": "mL"
          }
        }
      } ]
    },
    "request": {
      "method": "PUT",
      "url": "Medication/bf46ae05f5cd7e565b675568ff75924526b5f920b1757e61d39fc037c3f2fbdd"
    }
  }, {
    "resource": {
      "resourceType": "Medication",
      "id": "58655873b22e0ab3acf6f70b3910599606eeb6526764571a213eda3d29e1849a",
      "identifier": [ {
        "system": "https://bzkf.github.io/zenzy-to-fhir/identifiers/zenzy-wirkstoff-id",
        "value": "Fluorouracil"
      } ],
      "code": {
        "coding": [ {
          "system": "http://fhir.de/CodeSystem/bfarm/atc",
          "version": "2025",
          "code": "L01BC02",
          "display": "Fluorouracil"
        } ],
        "text": "Fluorouracil"
      },
      "status": "active",
      "amount": {
        "numerator": {
          "value": 1,
          "unit": "mg",
          "system": "http://unitsofmeasure.org",
          "code": "mg"
        },
        "denominator": {
          "value": 1,
          "unit": "{Stueck}",
          "system": "http://unitsofmeasure.org",
          "code": "1"
        }
      },
      "ingredient": [ {
        "itemCodeableConcept": {
          "coding": [ {
            "system": "http://snomed.info/sct",
            "version": "http://snomed.info/sct/900000000000207008/version/20260101",
            "code": "387172005",
            "display": "Fluorouracil (substance)"
          } ]
        },
        "isActive": true
      } ]
    },
    "request": {
      "method": "PUT",
      "url": "Medication/58655873b22e0ab3acf6f70b3910599606eeb6526764571a213eda3d29e1849a"
    }
  }, {
    "resource": {
      "resourceType": "Medication",
      "id": "1f2497d56d36964b8c8de60ff98549470d2226669ceb8272caa0801904c9da77",
      "identifier": [ {
        "system": "https://bzkf.github.io/zenzy-to-fhir/identifiers/zenzy-wirkstoff-id",
        "value": "Natriumfolinat"
      } ],
      "code": {
        "coding": [ {
          "system": "http://fhir.de/CodeSystem/bfarm/atc",
          "version": "2025",
          "code": "V03AF06",
          "display": "Natriumfolinat"
        } ],
        "text": "Natriumfolinat"
      },
      "status": "active",
      "amount": {
        "numerator": {
          "value": 1,
          "unit": "mg",
          "system": "http://unitsofmeasure.org",
          "code": "mg"
        },
        "denominator": {
          "value": 1,
          "unit": "{Stueck}",
          "system": "http://unitsofmeasure.org",
          "code": "1"
        }
      },
      "ingredient": [ {
        "itemCodeableConcept": {
          "coding": [ {
            "system": "http://snomed.info/sct",
            "version": "http://snomed.info/sct/900000000000207008/version/20260101",
            "code": "768550004",
            "display": "Sodium folinate (substance)"
          } ]
        },
        "isActive": true
      } ]
    },
    "request": {
      "method": "PUT",
      "url": "Medication/1f2497d56d36964b8c8de60ff98549470d2226669ceb8272caa0801904c9da77"
    }
  }, {
    "resource": {
      "resourceType": "Medication",
      "id": "fb1567b70a9ef69e338fa2d329ed33bc44b7308cd4358d4c5163f5a796fff4fa",
      "identifier": [ {
        "system": "https://bzkf.github.io/zenzy-to-fhir/identifiers/zenzy-traegerloesung-id",
        "value": "nacl-0-9"
      } ],
      "code": {
        "coding": [ {
          "system": "http://snomed.info/sct",
          "version": "http://snomed.info/sct/900000000000207008/version/20260101",
          "code": "1263924005",
          "display": "Product containing precisely sodium chloride 9 milligram/1 milliliter conventional release solution for infusion and/or injection (clinical drug)"
        }, {
          "system": "http://fhir.de/CodeSystem/bfarm/atc",
          "version": "2025",
          "code": "V07AB02",
          "display": "Physiologische Kochsalzlösung"
        } ],
        "text": "NaCl 0.9%"
      },
      "status": "active",
      "amount": {
        "numerator": {
          "value": 1,
          "unit": "milliliter",
          "system": "http://unitsofmeasure.org",
          "code": "mL"
        },
        "denominator": {
          "value": 1,
          "unit": "1",
          "system": "http://unitsofmeasure.org",
          "code": "{Stueck}"
        }
      }
    },
    "request": {
      "method": "PUT",
      "url": "Medication/fb1567b70a9ef69e338fa2d329ed33bc44b7308cd4358d4c5163f5a796fff4fa"
    }
  } ]
}