{
  "resourceType": "Bundle",
  "id": "667c989137209b35b15792c614a61030c3522c497b4b8df86f85d09c2f03776b",
  "type": "transaction",
  "entry": [ {
    "resource": {
      "resourceType": "MedicationRequest",
      "id": "667c989137209b35b15792c614a61030c3522c497b4b8df86f85d09c2f03776b",
      "identifier": [ {
        "system": "https://bzkf.github.io/zenzy-to-fhir/identifiers/therapie-medication-request-id",
        "value": "12"
      } ],
      "status": "active",
      "intent": "order",
      "reportedBoolean": false,
      "medicationReference": {
        "reference": "Medication/df8add0bfb681b8711b123b3e37c414be96b82cae5fa57151382fb20030aaf1c"
      },
      "subject": {
        "reference": "Patient/12"
      },
      "dosageInstruction": [ {
        "timing": {
          "event": [ "2024-06-26T00:00:00+02:00" ]
        },
        "doseAndRate": [ {
          "doseQuantity": {
            "value": 1,
            "unit": "1",
            "system": "http://unitsofmeasure.org",
            "code": "{Stueck}"
          }
        } ]
      } ]
    },
    "request": {
      "method": "PUT",
      "url": "MedicationRequest/667c989137209b35b15792c614a61030c3522c497b4b8df86f85d09c2f03776b"
    }
  }, {
    "resource": {
      "resourceType": "Medication",
      "id": "df8add0bfb681b8711b123b3e37c414be96b82cae5fa57151382fb20030aaf1c",
      "identifier": [ {
        "system": "https://bzkf.github.io/zenzy-to-fhir/identifiers/therapie-medication-id",
        "value": "12"
      } ],
      "status": "active",
      "amount": {
        "numerator": {
          "value": 2.0,
          "unit": "milliliter",
          "system": "http://unitsofmeasure.org",
          "code": "mL"
        },
        "denominator": {
          "value": 1,
          "unit": "1",
          "system": "http://unitsofmeasure.org",
          "code": "{Stueck}"
        }
      },
      "ingredient": [ {
        "itemReference": {
          "reference": "Medication/410c64c9959c8ef6947befce25112f6d21e66f8f9a8a56fcea4e246f3a45ca40",
          "display": "NaCl 0.9%"
        },
        "isActive": false,
        "strength": {
          "numerator": {
            "value": 2.0,
            "unit": "1",
            "system": "http://unitsofmeasure.org",
            "code": "{Stueck}"
          },
          "denominator": {
            "value": 2.0,
            "unit": "milliliter",
            "system": "http://unitsofmeasure.org",
            "code": "mL"
          }
        }
      }, {
        "itemReference": {
          "reference": "Medication/5d29fcf0b6c100f8a9cce321c4947f73d6d6eff16fd221258b81c386bc8112d4",
          "display": "Methotrexat"
        },
        "isActive": false,
        "strength": {
          "numerator": {
            "value": 75.0,
            "unit": "{Stueck}",
            "system": "http://unitsofmeasure.org",
            "code": "1"
          },
          "denominator": {
            "value": 2.0,
            "unit": "milliliter",
            "system": "http://unitsofmeasure.org",
            "code": "mL"
          }
        }
      } ]
    },
    "request": {
      "method": "PUT",
      "url": "Medication/df8add0bfb681b8711b123b3e37c414be96b82cae5fa57151382fb20030aaf1c"
    }
  }, {
    "resource": {
      "resourceType": "Medication",
      "id": "5d29fcf0b6c100f8a9cce321c4947f73d6d6eff16fd221258b81c386bc8112d4",
      "identifier": [ {
        "system": "https://bzkf.github.io/zenzy-to-fhir/identifiers/therapie-wirkstoff-medication-id",
        "value": "methotrexat"
      } ],
      "code": {
        "coding": [ {
          "system": "http://fhir.de/CodeSystem/bfarm/atc",
          "version": "2025",
          "code": "L04AX03",
          "display": "Methotrexat"
        }, {
          "system": "http://snomed.info/sct",
          "version": "http://snomed.info/sct/900000000000207008/version/20260101",
          "code": "387381009",
          "display": "Methotrexate (substance)"
        } ],
        "text": "Methotrexat"
      },
      "status": "active",
      "amount": {
        "numerator": {
          "value": 1,
          "unit": "mg",
          "system": "http://unitsofmeasure.org",
          "code": "mg"
        },
        "denominator": {
          "value": 1,
          "unit": "{Stueck}",
          "system": "http://unitsofmeasure.org",
          "code": "1"
        }
      }
    },
    "request": {
      "method": "PUT",
      "url": "Medication/5d29fcf0b6c100f8a9cce321c4947f73d6d6eff16fd221258b81c386bc8112d4"
    }
  }, {
    "resource": {
      "resourceType": "Medication",
      "id": "410c64c9959c8ef6947befce25112f6d21e66f8f9a8a56fcea4e246f3a45ca40",
      "identifier": [ {
        "system": "https://bzkf.github.io/zenzy-to-fhir/identifiers/therapie-traegerloesung-medication-id",
        "value": "nacl-0-9"
      } ],
      "code": {
        "coding": [ {
          "system": "http://snomed.info/sct",
          "version": "http://snomed.info/sct/900000000000207008/version/20260101",
          "code": "1263924005",
          "display": "Product containing precisely sodium chloride 9 milligram/1 milliliter conventional release solution for infusion and/or injection (clinical drug)"
        }, {
          "system": "http://fhir.de/CodeSystem/bfarm/atc",
          "version": "2025",
          "code": "V07AB02",
          "display": "Physiologische Kochsalzlösung"
        } ],
        "text": "NaCl 0.9%"
      },
      "status": "active",
      "amount": {
        "numerator": {
          "value": 1,
          "unit": "milliliter",
          "system": "http://unitsofmeasure.org",
          "code": "mL"
        },
        "denominator": {
          "value": 1,
          "unit": "1",
          "system": "http://unitsofmeasure.org",
          "code": "{Stueck}"
        }
      }
    },
    "request": {
      "method": "PUT",
      "url": "Medication/410c64c9959c8ef6947befce25112f6d21e66f8f9a8a56fcea4e246f3a45ca40"
    }
  } ]
}