{
  "resourceType": "Bundle",
  "id": "5a53594fb4666f601a7b1cd7fd70ae9d86fc93ceed2274302fbba92e7c538770",
  "type": "transaction",
  "entry": [ {
    "resource": {
      "resourceType": "MedicationRequest",
      "id": "5a53594fb4666f601a7b1cd7fd70ae9d86fc93ceed2274302fbba92e7c538770",
      "identifier": [ {
        "system": "https://bzkf.github.io/zenzy-to-fhir/identifiers/therapie-medication-request-id",
        "value": "4"
      } ],
      "status": "active",
      "intent": "order",
      "reportedBoolean": false,
      "medicationReference": {
        "reference": "Medication/329a64b62174c1d06b65721a1824dee9e7ddd36f948fc8cedd3cdc98dabc42f9"
      },
      "subject": {
        "reference": "Patient/4"
      },
      "dosageInstruction": [ {
        "text": "Baxterpumpe (SV4) über 24 h",
        "timing": {
          "event": [ "2007-05-02T02:00:00+02:00" ],
          "repeat": {
            "duration": 24.0,
            "durationUnit": "h"
          }
        },
        "route": {
          "coding": [ {
            "system": "http://snomed.info/sct",
            "version": "http://snomed.info/sct/900000000000207008/version/20260101",
            "code": "47625008",
            "display": "Intravenous route"
          } ]
        },
        "method": {
          "coding": [ {
            "system": "http://snomed.info/sct",
            "version": "http://snomed.info/sct/900000000000207008/version/20260101",
            "code": "36576007",
            "display": "Infusion (procedure)"
          } ]
        },
        "doseAndRate": [ {
          "doseQuantity": {
            "value": 100.0,
            "unit": "milliliter",
            "system": "http://unitsofmeasure.org",
            "code": "mL"
          }
        } ]
      } ]
    },
    "request": {
      "method": "PUT",
      "url": "MedicationRequest/5a53594fb4666f601a7b1cd7fd70ae9d86fc93ceed2274302fbba92e7c538770"
    }
  }, {
    "resource": {
      "resourceType": "Medication",
      "id": "329a64b62174c1d06b65721a1824dee9e7ddd36f948fc8cedd3cdc98dabc42f9",
      "identifier": [ {
        "system": "https://bzkf.github.io/zenzy-to-fhir/identifiers/therapie-medication-id",
        "value": "4"
      } ],
      "status": "active",
      "amount": {
        "numerator": {
          "value": 100.0,
          "unit": "milliliter",
          "system": "http://unitsofmeasure.org",
          "code": "mL"
        },
        "denominator": {
          "value": 1,
          "unit": "1",
          "system": "http://unitsofmeasure.org",
          "code": "{Stueck}"
        }
      },
      "ingredient": [ {
        "itemReference": {
          "reference": "Medication/410c64c9959c8ef6947befce25112f6d21e66f8f9a8a56fcea4e246f3a45ca40",
          "display": "NaCl 0.9%"
        },
        "isActive": false,
        "strength": {
          "numerator": {
            "value": 100.0,
            "unit": "1",
            "system": "http://unitsofmeasure.org",
            "code": "{Stueck}"
          },
          "denominator": {
            "value": 100.0,
            "unit": "milliliter",
            "system": "http://unitsofmeasure.org",
            "code": "mL"
          }
        }
      }, {
        "itemReference": {
          "reference": "Medication/0f0afcc1be19f786831dd70d69bc15fee112fdde59b2fb92d986f89abc3dc3ed",
          "display": "Fluorouracil"
        },
        "isActive": false,
        "strength": {
          "numerator": {
            "value": 3300.0,
            "unit": "{Stueck}",
            "system": "http://unitsofmeasure.org",
            "code": "1"
          },
          "denominator": {
            "value": 100.0,
            "unit": "milliliter",
            "system": "http://unitsofmeasure.org",
            "code": "mL"
          }
        }
      }, {
        "itemReference": {
          "reference": "Medication/45d2dc95af808c4138fd216b474debdf0c98ae3ad30fbe5a08e0ab41a081591d",
          "display": "Natriumfolinat"
        },
        "isActive": false,
        "strength": {
          "numerator": {
            "value": 800.0,
            "unit": "{Stueck}",
            "system": "http://unitsofmeasure.org",
            "code": "1"
          },
          "denominator": {
            "value": 100.0,
            "unit": "milliliter",
            "system": "http://unitsofmeasure.org",
            "code": "mL"
          }
        }
      } ]
    },
    "request": {
      "method": "PUT",
      "url": "Medication/329a64b62174c1d06b65721a1824dee9e7ddd36f948fc8cedd3cdc98dabc42f9"
    }
  }, {
    "resource": {
      "resourceType": "Medication",
      "id": "0f0afcc1be19f786831dd70d69bc15fee112fdde59b2fb92d986f89abc3dc3ed",
      "identifier": [ {
        "system": "https://bzkf.github.io/zenzy-to-fhir/identifiers/therapie-wirkstoff-medication-id",
        "value": "fluorouracil"
      } ],
      "code": {
        "coding": [ {
          "system": "http://fhir.de/CodeSystem/bfarm/atc",
          "version": "2025",
          "code": "L01BC02",
          "display": "Fluorouracil"
        }, {
          "system": "http://snomed.info/sct",
          "version": "http://snomed.info/sct/900000000000207008/version/20260101",
          "code": "387172005",
          "display": "Fluorouracil (substance)"
        } ],
        "text": "Fluorouracil"
      },
      "status": "active",
      "amount": {
        "numerator": {
          "value": 1,
          "unit": "mg",
          "system": "http://unitsofmeasure.org",
          "code": "mg"
        },
        "denominator": {
          "value": 1,
          "unit": "{Stueck}",
          "system": "http://unitsofmeasure.org",
          "code": "1"
        }
      }
    },
    "request": {
      "method": "PUT",
      "url": "Medication/0f0afcc1be19f786831dd70d69bc15fee112fdde59b2fb92d986f89abc3dc3ed"
    }
  }, {
    "resource": {
      "resourceType": "Medication",
      "id": "45d2dc95af808c4138fd216b474debdf0c98ae3ad30fbe5a08e0ab41a081591d",
      "identifier": [ {
        "system": "https://bzkf.github.io/zenzy-to-fhir/identifiers/therapie-wirkstoff-medication-id",
        "value": "natriumfolinat"
      } ],
      "code": {
        "coding": [ {
          "system": "http://fhir.de/CodeSystem/bfarm/atc",
          "version": "2025",
          "code": "V03AF06",
          "display": "Natriumfolinat"
        }, {
          "system": "http://snomed.info/sct",
          "version": "http://snomed.info/sct/900000000000207008/version/20260101",
          "code": "768550004",
          "display": "Sodium folinate (substance)"
        } ],
        "text": "Natriumfolinat"
      },
      "status": "active",
      "amount": {
        "numerator": {
          "value": 1,
          "unit": "mg",
          "system": "http://unitsofmeasure.org",
          "code": "mg"
        },
        "denominator": {
          "value": 1,
          "unit": "{Stueck}",
          "system": "http://unitsofmeasure.org",
          "code": "1"
        }
      }
    },
    "request": {
      "method": "PUT",
      "url": "Medication/45d2dc95af808c4138fd216b474debdf0c98ae3ad30fbe5a08e0ab41a081591d"
    }
  }, {
    "resource": {
      "resourceType": "Medication",
      "id": "410c64c9959c8ef6947befce25112f6d21e66f8f9a8a56fcea4e246f3a45ca40",
      "identifier": [ {
        "system": "https://bzkf.github.io/zenzy-to-fhir/identifiers/therapie-traegerloesung-medication-id",
        "value": "nacl-0-9"
      } ],
      "code": {
        "coding": [ {
          "system": "http://snomed.info/sct",
          "version": "http://snomed.info/sct/900000000000207008/version/20260101",
          "code": "1263924005",
          "display": "Product containing precisely sodium chloride 9 milligram/1 milliliter conventional release solution for infusion and/or injection (clinical drug)"
        }, {
          "system": "http://fhir.de/CodeSystem/bfarm/atc",
          "version": "2025",
          "code": "V07AB02",
          "display": "Physiologische Kochsalzlösung"
        } ],
        "text": "NaCl 0.9%"
      },
      "status": "active",
      "amount": {
        "numerator": {
          "value": 1,
          "unit": "milliliter",
          "system": "http://unitsofmeasure.org",
          "code": "mL"
        },
        "denominator": {
          "value": 1,
          "unit": "1",
          "system": "http://unitsofmeasure.org",
          "code": "{Stueck}"
        }
      }
    },
    "request": {
      "method": "PUT",
      "url": "Medication/410c64c9959c8ef6947befce25112f6d21e66f8f9a8a56fcea4e246f3a45ca40"
    }
  } ]
}