{
  "resourceType": "Bundle",
  "id": "fdcfad11ed78af26b7b55f1119b5f923dac19bf4f35136ee31b6f72ccba2f490",
  "type": "transaction",
  "entry": [ {
    "resource": {
      "resourceType": "MedicationRequest",
      "id": "fdcfad11ed78af26b7b55f1119b5f923dac19bf4f35136ee31b6f72ccba2f490",
      "identifier": [ {
        "system": "https://bzkf.github.io/zenzy-to-fhir/identifiers/zenzy-therapie-autonr",
        "value": "4"
      } ],
      "status": "active",
      "intent": "order",
      "reportedBoolean": false,
      "medicationReference": {
        "reference": "Medication/bf46ae05f5cd7e565b675568ff75924526b5f920b1757e61d39fc037c3f2fbdd"
      },
      "subject": {
        "reference": "Patient/4"
      },
      "dosageInstruction": [ {
        "timing": {
          "event": [ "2007-05-02T02:00:00+02:00" ]
        },
        "route": {
          "text": "Baxterpumpe (SV4) über 24 h"
        }
      } ]
    },
    "request": {
      "method": "PUT",
      "url": "MedicationRequest/fdcfad11ed78af26b7b55f1119b5f923dac19bf4f35136ee31b6f72ccba2f490"
    }
  }, {
    "resource": {
      "resourceType": "Medication",
      "id": "bf46ae05f5cd7e565b675568ff75924526b5f920b1757e61d39fc037c3f2fbdd",
      "identifier": [ {
        "system": "https://bzkf.github.io/zenzy-to-fhir/identifiers/zenzy-herstellungs-id",
        "value": "44444"
      } ],
      "status": "active",
      "amount": {
        "numerator": {
          "value": 100.0,
          "unit": "milliliter",
          "system": "http://unitsofmeasure.org",
          "code": "mL"
        },
        "denominator": {
          "value": 1
        }
      },
      "ingredient": [ {
        "itemCodeableConcept": {
          "text": "NaCl 0.9%"
        },
        "isActive": false
      }, {
        "itemReference": {
          "reference": "Medication/a61844b2f16bae5283fe2e454cc8382df2bb056c937bfe238b640ec08613e88d"
        },
        "isActive": true
      }, {
        "itemReference": {
          "reference": "Medication/4c97086b8da3343ba8039e33bd57bdd1e06500b6c377d5fe9b62413a9f844d3e"
        },
        "isActive": true
      } ]
    },
    "request": {
      "method": "PUT",
      "url": "Medication/bf46ae05f5cd7e565b675568ff75924526b5f920b1757e61d39fc037c3f2fbdd"
    }
  }, {
    "resource": {
      "resourceType": "Medication",
      "id": "a61844b2f16bae5283fe2e454cc8382df2bb056c937bfe238b640ec08613e88d",
      "identifier": [ {
        "system": "https://bzkf.github.io/zenzy-to-fhir/identifiers/zenzy-wirkstoff-id",
        "value": "fluorouracil"
      } ],
      "code": {
        "text": "Fluorouracil"
      }
    },
    "request": {
      "method": "PUT",
      "url": "Medication/a61844b2f16bae5283fe2e454cc8382df2bb056c937bfe238b640ec08613e88d"
    }
  }, {
    "resource": {
      "resourceType": "Medication",
      "id": "4c97086b8da3343ba8039e33bd57bdd1e06500b6c377d5fe9b62413a9f844d3e",
      "identifier": [ {
        "system": "https://bzkf.github.io/zenzy-to-fhir/identifiers/zenzy-wirkstoff-id",
        "value": "natriumfolinat"
      } ],
      "code": {
        "text": "Natriumfolinat"
      }
    },
    "request": {
      "method": "PUT",
      "url": "Medication/4c97086b8da3343ba8039e33bd57bdd1e06500b6c377d5fe9b62413a9f844d3e"
    }
  } ]
}