{
  "resourceType": "Bundle",
  "id": "ff1234a0accecda202835ec940cbc037a5cb6c0ec0ef03d56f0f6eada48e0bd7",
  "type": "transaction",
  "entry": [ {
    "resource": {
      "resourceType": "MedicationRequest",
      "id": "ff1234a0accecda202835ec940cbc037a5cb6c0ec0ef03d56f0f6eada48e0bd7",
      "identifier": [ {
        "system": "https://bzkf.github.io/zenzy-to-fhir/identifiers/zenzy-therapie-autonr",
        "value": "1"
      } ],
      "status": "active",
      "intent": "order",
      "reportedBoolean": false,
      "medicationReference": {
        "reference": "Medication/e5439f847792dafb16dfb65ed6b61e33a3c7f8dcf5faeecaccda5db41d969f91"
      },
      "subject": {
        "reference": "Patient/1"
      },
      "dosageInstruction": [ {
        "text": "Kurzinfusion über 30 min",
        "timing": {
          "event": [ "1999-10-26T11:30:00+02:00" ],
          "repeat": {
            "duration": 30.0,
            "durationUnit": "min"
          }
        },
        "route": {
          "coding": [ {
            "system": "http://snomed.info/sct",
            "version": "http://snomed.info/sct/900000000000207008/version/20260101",
            "code": "47625008",
            "display": "Intravenous route"
          } ]
        },
        "method": {
          "coding": [ {
            "system": "http://snomed.info/sct",
            "version": "http://snomed.info/sct/900000000000207008/version/20260101",
            "code": "36576007",
            "display": "Infusion (procedure)"
          } ]
        },
        "doseAndRate": [ {
          "doseQuantity": {
            "value": 500.0,
            "unit": "milliliter",
            "system": "http://unitsofmeasure.org",
            "code": "mL"
          }
        } ]
      } ]
    },
    "request": {
      "method": "PUT",
      "url": "MedicationRequest/ff1234a0accecda202835ec940cbc037a5cb6c0ec0ef03d56f0f6eada48e0bd7"
    }
  }, {
    "resource": {
      "resourceType": "Medication",
      "id": "e5439f847792dafb16dfb65ed6b61e33a3c7f8dcf5faeecaccda5db41d969f91",
      "identifier": [ {
        "system": "https://bzkf.github.io/zenzy-to-fhir/identifiers/zenzy-herstellungs-id",
        "value": "123456789"
      } ],
      "status": "active",
      "amount": {
        "numerator": {
          "value": 500.0,
          "unit": "milliliter",
          "system": "http://unitsofmeasure.org",
          "code": "mL"
        },
        "denominator": {
          "value": 1,
          "unit": "1",
          "system": "http://unitsofmeasure.org",
          "code": "{Stueck}"
        }
      },
      "ingredient": [ {
        "itemReference": {
          "reference": "Medication/7b0bedd37ab7da30e39737787f8ca4eef72b846160048dbaa2cb74eae461e276",
          "display": "Glucose 5%"
        },
        "isActive": false,
        "strength": {
          "numerator": {
            "value": 500.0,
            "unit": "1",
            "system": "http://unitsofmeasure.org",
            "code": "{Stueck}"
          },
          "denominator": {
            "value": 500.0,
            "unit": "milliliter",
            "system": "http://unitsofmeasure.org",
            "code": "mL"
          }
        }
      }, {
        "itemReference": {
          "reference": "Medication/58655873b22e0ab3acf6f70b3910599606eeb6526764571a213eda3d29e1849a",
          "display": "Fluorouracil"
        },
        "isActive": false,
        "strength": {
          "numerator": {
            "value": 900.0,
            "unit": "{Stueck}",
            "system": "http://unitsofmeasure.org",
            "code": "1"
          },
          "denominator": {
            "value": 500.0,
            "unit": "milliliter",
            "system": "http://unitsofmeasure.org",
            "code": "mL"
          }
        }
      } ]
    },
    "request": {
      "method": "PUT",
      "url": "Medication/e5439f847792dafb16dfb65ed6b61e33a3c7f8dcf5faeecaccda5db41d969f91"
    }
  }, {
    "resource": {
      "resourceType": "Medication",
      "id": "58655873b22e0ab3acf6f70b3910599606eeb6526764571a213eda3d29e1849a",
      "identifier": [ {
        "system": "https://bzkf.github.io/zenzy-to-fhir/identifiers/zenzy-wirkstoff-id",
        "value": "Fluorouracil"
      } ],
      "code": {
        "coding": [ {
          "system": "http://fhir.de/CodeSystem/bfarm/atc",
          "version": "2025",
          "code": "L01BC02",
          "display": "Fluorouracil"
        } ],
        "text": "Fluorouracil"
      },
      "status": "active",
      "amount": {
        "numerator": {
          "value": 1,
          "unit": "mg",
          "system": "http://unitsofmeasure.org",
          "code": "mg"
        },
        "denominator": {
          "value": 1,
          "unit": "{Stueck}",
          "system": "http://unitsofmeasure.org",
          "code": "1"
        }
      },
      "ingredient": [ {
        "itemCodeableConcept": {
          "coding": [ {
            "system": "http://snomed.info/sct",
            "version": "http://snomed.info/sct/900000000000207008/version/20260101",
            "code": "387172005",
            "display": "Fluorouracil (substance)"
          } ]
        },
        "isActive": true
      } ]
    },
    "request": {
      "method": "PUT",
      "url": "Medication/58655873b22e0ab3acf6f70b3910599606eeb6526764571a213eda3d29e1849a"
    }
  }, {
    "resource": {
      "resourceType": "Medication",
      "id": "7b0bedd37ab7da30e39737787f8ca4eef72b846160048dbaa2cb74eae461e276",
      "identifier": [ {
        "system": "https://bzkf.github.io/zenzy-to-fhir/identifiers/zenzy-traegerloesung-id",
        "value": "glucose-5"
      } ],
      "code": {
        "coding": [ {
          "system": "http://snomed.info/sct",
          "version": "http://snomed.info/sct/900000000000207008/version/20260101",
          "code": "1268457003",
          "display": "Product containing precisely glucose 50 milligram/1 milliliter conventional release solution for infusion and/or injection (clinical drug)"
        }, {
          "system": "http://fhir.de/CodeSystem/bfarm/atc",
          "version": "2025",
          "code": "B05BA11",
          "display": "Glucose"
        } ],
        "text": "Glucose 5%"
      },
      "status": "active",
      "amount": {
        "numerator": {
          "value": 1,
          "unit": "milliliter",
          "system": "http://unitsofmeasure.org",
          "code": "mL"
        },
        "denominator": {
          "value": 1,
          "unit": "1",
          "system": "http://unitsofmeasure.org",
          "code": "{Stueck}"
        }
      }
    },
    "request": {
      "method": "PUT",
      "url": "Medication/7b0bedd37ab7da30e39737787f8ca4eef72b846160048dbaa2cb74eae461e276"
    }
  } ]
}