{
  "resourceType": "Bundle",
  "id": "2d6adbb1909cfd1d58d76cbbb1a4d1ff403265f9b5b6050ef51576c3b250ea43",
  "type": "transaction",
  "entry": [ {
    "resource": {
      "resourceType": "MedicationRequest",
      "id": "2d6adbb1909cfd1d58d76cbbb1a4d1ff403265f9b5b6050ef51576c3b250ea43",
      "identifier": [ {
        "system": "https://bzkf.github.io/zenzy-to-fhir/identifiers/zenzy-therapie-autonr",
        "value": "3"
      } ],
      "status": "active",
      "intent": "order",
      "reportedBoolean": false,
      "medicationReference": {
        "reference": "Medication/97e100c1cd88877a4bcb6ce76b780b83081b73e0f2436188004ddd01a3eda2e7"
      },
      "subject": {
        "reference": "Patient/3"
      },
      "dosageInstruction": [ {
        "text": "subkutan",
        "timing": {
          "event": [ "2010-10-11T02:00:00+02:00" ]
        }
      } ]
    },
    "request": {
      "method": "PUT",
      "url": "MedicationRequest/2d6adbb1909cfd1d58d76cbbb1a4d1ff403265f9b5b6050ef51576c3b250ea43"
    }
  }, {
    "resource": {
      "resourceType": "Medication",
      "id": "97e100c1cd88877a4bcb6ce76b780b83081b73e0f2436188004ddd01a3eda2e7",
      "identifier": [ {
        "system": "https://bzkf.github.io/zenzy-to-fhir/identifiers/zenzy-herstellungs-id",
        "value": "33333333"
      } ],
      "status": "active",
      "ingredient": [ {
        "itemReference": {
          "reference": "Medication/a41740822ca5ac0381cb9aa6452389934d09c1c27a1589a00996e6ff3b7b2a8b",
          "display": "unverdünnt"
        },
        "isActive": false,
        "strength": {
          "numerator": {
            "value": 0.0,
            "unit": "1",
            "system": "http://unitsofmeasure.org",
            "code": "{Stueck}"
          },
          "denominator": {
            "value": 0.0,
            "unit": "milliliter",
            "system": "http://unitsofmeasure.org",
            "code": "mL"
          }
        }
      }, {
        "itemReference": {
          "reference": "Medication/bac3a0b089b44058cf1948cfdd3940edb418b1c131814cd580bd9f0ee8752c4b",
          "display": "Azacitidine"
        },
        "isActive": false,
        "strength": {
          "numerator": {
            "value": 65.0,
            "unit": "{Stueck}",
            "system": "http://unitsofmeasure.org",
            "code": "1"
          },
          "denominator": {
            "value": 0.0,
            "unit": "milliliter",
            "system": "http://unitsofmeasure.org",
            "code": "mL"
          }
        }
      } ]
    },
    "request": {
      "method": "PUT",
      "url": "Medication/97e100c1cd88877a4bcb6ce76b780b83081b73e0f2436188004ddd01a3eda2e7"
    }
  }, {
    "resource": {
      "resourceType": "Medication",
      "id": "bac3a0b089b44058cf1948cfdd3940edb418b1c131814cd580bd9f0ee8752c4b",
      "identifier": [ {
        "system": "https://bzkf.github.io/zenzy-to-fhir/identifiers/zenzy-wirkstoff-id",
        "value": "Azacitidine"
      } ],
      "code": {
        "coding": [ {
          "system": "http://fhir.de/CodeSystem/bfarm/atc",
          "version": "2025",
          "code": "L01BC07",
          "display": "Azacitidin"
        } ],
        "text": "Azacitidine"
      },
      "status": "active",
      "amount": {
        "numerator": {
          "value": 1,
          "unit": "mg",
          "system": "http://unitsofmeasure.org",
          "code": "mg"
        },
        "denominator": {
          "value": 1,
          "unit": "{Stueck}",
          "system": "http://unitsofmeasure.org",
          "code": "1"
        }
      },
      "ingredient": [ {
        "itemCodeableConcept": {
          "coding": [ {
            "system": "http://snomed.info/sct",
            "version": "http://snomed.info/sct/900000000000207008/version/20260101",
            "code": "412328000",
            "display": "Azacitidine (substance)"
          } ]
        },
        "isActive": true
      } ]
    },
    "request": {
      "method": "PUT",
      "url": "Medication/bac3a0b089b44058cf1948cfdd3940edb418b1c131814cd580bd9f0ee8752c4b"
    }
  }, {
    "resource": {
      "resourceType": "Medication",
      "id": "a41740822ca5ac0381cb9aa6452389934d09c1c27a1589a00996e6ff3b7b2a8b",
      "identifier": [ {
        "system": "https://bzkf.github.io/zenzy-to-fhir/identifiers/zenzy-traegerloesung-id",
        "value": "unverduennt"
      } ],
      "code": {
        "coding": [ {
          "system": "http://snomed.info/sct",
          "version": "http://snomed.info/sct/900000000000207008/version/20260101"
        } ],
        "text": "unverdünnt"
      },
      "status": "active",
      "amount": {
        "numerator": {
          "value": 1,
          "unit": "milliliter",
          "system": "http://unitsofmeasure.org",
          "code": "mL"
        },
        "denominator": {
          "value": 1,
          "unit": "1",
          "system": "http://unitsofmeasure.org",
          "code": "{Stueck}"
        }
      }
    },
    "request": {
      "method": "PUT",
      "url": "Medication/a41740822ca5ac0381cb9aa6452389934d09c1c27a1589a00996e6ff3b7b2a8b"
    }
  } ]
}