{
  "resourceType": "Bundle",
  "id": "ff1234a0accecda202835ec940cbc037a5cb6c0ec0ef03d56f0f6eada48e0bd7",
  "type": "transaction",
  "entry": [ {
    "resource": {
      "resourceType": "MedicationRequest",
      "id": "ff1234a0accecda202835ec940cbc037a5cb6c0ec0ef03d56f0f6eada48e0bd7",
      "identifier": [ {
        "system": "https://bzkf.github.io/zenzy-to-fhir/identifiers/zenzy-therapie-autonr",
        "value": "1"
      } ],
      "status": "active",
      "intent": "order",
      "reportedBoolean": false,
      "medicationReference": {
        "reference": "Medication/e5439f847792dafb16dfb65ed6b61e33a3c7f8dcf5faeecaccda5db41d969f91"
      },
      "subject": {
        "reference": "Patient/1"
      },
      "dosageInstruction": [ {
        "timing": {
          "event": [ "1999-10-26T11:30:00+02:00" ]
        },
        "route": {
          "text": "Infusion"
        }
      } ]
    },
    "request": {
      "method": "PUT",
      "url": "MedicationRequest/ff1234a0accecda202835ec940cbc037a5cb6c0ec0ef03d56f0f6eada48e0bd7"
    }
  }, {
    "resource": {
      "resourceType": "Medication",
      "id": "e5439f847792dafb16dfb65ed6b61e33a3c7f8dcf5faeecaccda5db41d969f91",
      "identifier": [ {
        "system": "https://bzkf.github.io/zenzy-to-fhir/identifiers/zenzy-herstellungs-id",
        "value": "123456789"
      } ],
      "status": "active",
      "amount": {
        "numerator": {
          "value": 500.0,
          "unit": "milliliter",
          "system": "http://unitsofmeasure.org",
          "code": "mL"
        },
        "denominator": {
          "value": 1
        }
      },
      "ingredient": [ {
        "itemCodeableConcept": {
          "text": "Glucose 5%"
        },
        "isActive": false
      }, {
        "itemReference": {
          "reference": "Medication/a61844b2f16bae5283fe2e454cc8382df2bb056c937bfe238b640ec08613e88d"
        },
        "isActive": true
      } ]
    },
    "request": {
      "method": "PUT",
      "url": "Medication/e5439f847792dafb16dfb65ed6b61e33a3c7f8dcf5faeecaccda5db41d969f91"
    }
  }, {
    "resource": {
      "resourceType": "Medication",
      "id": "a61844b2f16bae5283fe2e454cc8382df2bb056c937bfe238b640ec08613e88d",
      "identifier": [ {
        "system": "https://bzkf.github.io/zenzy-to-fhir/identifiers/zenzy-wirkstoff-id",
        "value": "fluorouracil"
      } ],
      "code": {
        "text": "Fluorouracil"
      }
    },
    "request": {
      "method": "PUT",
      "url": "Medication/a61844b2f16bae5283fe2e454cc8382df2bb056c937bfe238b640ec08613e88d"
    }
  } ]
}