{
  "resourceType": "Bundle",
  "id": "95b137a739fa2597ca3b830c014e934bc8a5dbd8b1663da4d273b37aabc45cbd",
  "type": "transaction",
  "entry": [ {
    "resource": {
      "resourceType": "MedicationRequest",
      "id": "95b137a739fa2597ca3b830c014e934bc8a5dbd8b1663da4d273b37aabc45cbd",
      "identifier": [ {
        "system": "https://bzkf.github.io/zenzy-to-fhir/identifiers/zenzy-therapie-autonr",
        "value": "2"
      } ],
      "status": "active",
      "intent": "order",
      "reportedBoolean": false,
      "medicationReference": {
        "reference": "Medication/8b3b5cb27c86030220ad8a9aaed309377b452312c1fce272d08d26909b97800b"
      },
      "subject": {
        "reference": "Patient/2"
      },
      "dosageInstruction": [ {
        "text": "Infusion über 1,5 -3 Stunden",
        "timing": {
          "event": [ "1999-10-25T11:30:00+02:00" ],
          "repeat": {
            "duration": 1.5,
            "durationMax": 3.0,
            "durationUnit": "h"
          }
        },
        "route": {
          "coding": [ {
            "system": "http://snomed.info/sct",
            "version": "http://snomed.info/sct/900000000000207008/version/20260101",
            "code": "47625008",
            "display": "Intravenous route"
          } ]
        },
        "method": {
          "coding": [ {
            "system": "http://snomed.info/sct",
            "version": "http://snomed.info/sct/900000000000207008/version/20260101",
            "code": "36576007",
            "display": "Infusion (procedure)"
          } ]
        },
        "doseAndRate": [ {
          "doseQuantity": {
            "value": 500.0,
            "unit": "mg/m2",
            "system": "http://unitsofmeasure.org",
            "code": "mg/m2"
          }
        } ]
      } ]
    },
    "request": {
      "method": "PUT",
      "url": "MedicationRequest/95b137a739fa2597ca3b830c014e934bc8a5dbd8b1663da4d273b37aabc45cbd"
    }
  }, {
    "resource": {
      "resourceType": "Medication",
      "id": "8b3b5cb27c86030220ad8a9aaed309377b452312c1fce272d08d26909b97800b",
      "identifier": [ {
        "system": "https://bzkf.github.io/zenzy-to-fhir/identifiers/zenzy-herstellungs-id",
        "value": "1111111111"
      } ],
      "status": "active",
      "amount": {
        "numerator": {
          "value": 500.0,
          "unit": "milliliter",
          "system": "http://unitsofmeasure.org",
          "code": "mL"
        },
        "denominator": {
          "value": 1
        }
      },
      "ingredient": [ {
        "itemCodeableConcept": {
          "text": "Glucose 5%"
        },
        "isActive": false
      }, {
        "itemReference": {
          "reference": "Medication/a61844b2f16bae5283fe2e454cc8382df2bb056c937bfe238b640ec08613e88d"
        },
        "isActive": true
      } ]
    },
    "request": {
      "method": "PUT",
      "url": "Medication/8b3b5cb27c86030220ad8a9aaed309377b452312c1fce272d08d26909b97800b"
    }
  }, {
    "resource": {
      "resourceType": "Medication",
      "id": "a61844b2f16bae5283fe2e454cc8382df2bb056c937bfe238b640ec08613e88d",
      "identifier": [ {
        "system": "https://bzkf.github.io/zenzy-to-fhir/identifiers/zenzy-wirkstoff-id",
        "value": "fluorouracil"
      } ],
      "code": {
        "text": "Fluorouracil"
      }
    },
    "request": {
      "method": "PUT",
      "url": "Medication/a61844b2f16bae5283fe2e454cc8382df2bb056c937bfe238b640ec08613e88d"
    }
  } ]
}